Subj,Cond,Block,Trial,Order,Code,Resp,Name,Stim,RT,Correct
5637,1,1,1,1,e,57,SPACE,"Inst.bmp",43412,True
5637,1,1,2,82,gg,53,/,"Amelia",582,True
5637,1,1,3,88,gg,53,/,"Paula",614,True
5637,1,1,4,9,gg,53,/,"Tiffany",686,True
5637,1,1,5,39,gg,53,/,"Lucy",591,True
5637,1,1,6,34,gg,53,/,"Natalie",684,True
5637,1,1,7,32,gg,53,/,"Bella",546,True
5637,1,1,8,80,gg,53,/,"Alexandra",1106,True
5637,1,1,9,44,gg,53,/,"Brianna",544,True
5637,1,1,10,66,gg,53,/,"Kaitlyn",621,True
5637,1,1,11,43,gg,53,/,"Michelle",516,True
5637,1,1,12,97,gg,53,/,"Olivia",640,True
5637,1,1,13,50,gg,53,/,"Penny",577,True
5637,1,1,14,83,gg,53,/,"Nicole",617,True
5637,1,1,15,31,gg,53,/,"Joanne",569,True
5637,1,1,16,7,gg,44,Z,"Tamara",399,False
5637,1,1,17,60,gg,53,/,"Kaylee",595,True
5637,1,1,18,18,gg,53,/,"Victoria",569,True
5637,1,1,19,24,gg,53,/,"Hailey",564,True
5637,1,1,20,29,gg,53,/,"Heather",592,True
5637,1,1,21,30,gg,53,/,"Rihanna",600,True
5637,1,1,22,87,gg,53,/,"Gabriella",757,True
5637,1,1,23,58,gg,53,/,"Grace",1061,True
5637,1,1,24,41,gg,53,/,"Erica",560,True
5637,1,1,25,78,gg,53,/,"Jill",660,True
5637,1,1,26,12,gb,44,Z,"Mike",826,True
5637,1,1,27,53,gb,53,/,"Lucas",480,False
5637,1,1,28,10,gb,44,Z,"Arthur",580,True
5637,1,1,29,46,gb,44,Z,"Oliver",671,True
5637,1,1,30,74,gb,44,Z,"William",654,True
5637,1,1,31,13,gb,44,Z,"Liam",667,True
5637,1,1,32,17,gb,44,Z,"Kyle",399,True
5637,1,1,33,23,gb,44,Z,"Ethan",635,True
5637,1,1,34,14,gb,44,Z,"Andrew",552,True
5637,1,1,35,40,gb,44,Z,"Jack",566,True
5637,1,1,36,49,gb,44,Z,"John",667,True
5637,1,1,37,5,gb,44,Z,"Michael",599,True
5637,1,1,38,85,gb,44,Z,"Nathan",1022,True
5637,1,1,39,28,gb,44,Z,"Edward",631,True
5637,1,1,40,95,gb,44,Z,"Gary",825,True
5637,1,1,41,96,gb,44,Z,"Marc",851,True
5637,1,1,42,59,gb,44,Z,"Scott",634,True
5637,1,1,43,79,gb,53,/,"Carl",462,False
5637,1,1,44,68,gb,44,Z,"Daniel",549,True
5637,1,1,45,62,gb,44,Z,"Bobby",736,True
5637,1,1,46,19,gb,44,Z,"Hector",666,True
5637,1,1,47,54,gb,53,/,"Nicholas",558,False
5637,1,1,48,81,gb,44,Z,"Victor",630,True
5637,1,1,49,33,gb,44,Z,"Simon",623,True
5637,1,1,52,77,bg,53,/,"Diana",548,True
5637,1,1,53,35,bg,53,/,"Samantha",515,True
5637,1,1,54,11,bg,53,/,"Layla",678,True
5637,1,1,55,21,bg,53,/,"Lillian",862,True
5637,1,1,56,26,bg,53,/,"Claire",631,True
5637,1,1,57,71,bg,53,/,"Brittney",624,True
5637,1,1,58,22,bg,53,/,"Rachel",621,True
5637,1,1,59,27,bg,53,/,"Alyssa",566,True
5637,1,1,60,73,bg,53,/,"Christina",590,True
5637,1,1,61,52,bg,53,/,"Charlotte",573,True
5637,1,1,62,51,bg,53,/,"Scarlett",531,True
5637,1,1,63,47,bg,53,/,"Emma",581,True
5637,1,1,64,70,bg,53,/,"Stephanie",615,True
5637,1,1,65,8,bg,53,/,"Carmen",1239,True
5637,1,1,66,92,bg,53,/,"Mary",588,True
5637,1,1,67,37,bg,53,/,"Daniella",506,True
5637,1,1,68,36,bg,53,/,"Eve",693,True
5637,1,1,69,61,bg,53,/,"Joy",682,True
5637,1,1,70,93,bg,53,/,"Sarah",557,True
5637,1,1,71,20,bg,44,Z,"Alice",463,False
5637,1,1,72,56,bg,53,/,"Wendy",696,True
5637,1,1,73,94,bg,53,/,"Anna",552,True
5637,1,1,74,63,bg,53,/,"Mia",580,True
5637,1,1,75,75,bg,53,/,"Elizabeth",581,True
5637,1,1,76,76,bb,44,Z,"Anthony",670,True
5637,1,1,77,45,bb,44,Z,"Christian",649,True
5637,1,1,78,6,bb,44,Z,"Adam",591,True
5637,1,1,79,38,bb,44,Z,"Clark",646,True
5637,1,1,80,2,bb,44,Z,"Timothy",1134,True
5637,1,1,81,42,bb,44,Z,"David",586,True
5637,1,1,82,84,bb,44,Z,"Ryan",631,True
5637,1,1,83,90,bb,44,Z,"Lance",1104,True
5637,1,1,84,15,bb,44,Z,"Josh",419,True
5637,1,1,85,3,bb,44,Z,"Evan",650,True
5637,1,1,86,89,bb,44,Z,"Brian",1182,True
5637,1,1,87,67,bb,44,Z,"Kelvin",596,True
5637,1,1,88,91,bb,44,Z,"Gabe",795,True
5637,1,1,89,65,bb,44,Z,"Cameron",814,True
5637,1,1,90,48,bb,44,Z,"Harold",696,True
5637,1,1,91,72,bb,44,Z,"Peter",638,True
5637,1,1,92,55,bb,44,Z,"Stephen",567,True
5637,1,1,93,57,bb,44,Z,"Erik",614,True
5637,1,1,94,86,bb,44,Z,"Samuel",653,True
5637,1,1,95,64,bb,44,Z,"Paul",621,True
5637,1,1,96,69,bb,44,Z,"Thomas",607,True
5637,1,1,97,25,bb,44,Z,"Isaac",574,True
5637,1,1,98,16,bb,44,Z,"Alexander",483,True
5637,1,1,99,4,bb,44,Z,"Richard",657,True
5637,1,1,100,98,e,2,2,"rec.bmp",3444,False
5637,1,1,101,99,e,2,2,"sex.bmp",2966,False
5637,1,1,103,100,e,-1,African,"Please indicate your race:",6338,True
5637,1,1,103,101,e,-1,19,"Please indicate your age:",2231,True
5637,1,1,104,102,e,-1,4,"Please indicate how much exposure you have to children in a typical week in hours:",23380,True
5637,1,1,105,103,e,57,SPACE,"debrief.bmp",2154,True
