Subj,Cond,Block,Trial,Order,Code,Resp,Name,Stim,RT,Correct
5648,1,1,1,1,e,57,SPACE,"Inst.bmp",25768,True
5648,1,1,2,42,gg,53,/,"Alyssa",614,True
5648,1,1,3,57,gg,53,/,"Eve",1087,True
5648,1,1,4,97,gg,53,/,"Victoria",624,True
5648,1,1,5,78,gg,53,/,"Isabella",879,True
5648,1,1,6,5,gg,53,/,"Natalie",793,True
5648,1,1,7,94,gg,53,/,"Brittney",527,True
5648,1,1,8,40,gg,53,/,"Grace",839,True
5648,1,1,9,84,gg,53,/,"Hailey",605,True
5648,1,1,10,20,gg,53,/,"Layla",1091,True
5648,1,1,11,12,gg,53,/,"Kaitlyn",8943,True
5648,1,1,12,65,gg,53,/,"Cindy",1385,True
5648,1,1,13,91,gg,53,/,"Diana",964,True
5648,1,1,14,47,gg,53,/,"Alice",496,True
5648,1,1,15,58,gg,53,/,"Mary",854,True
5648,1,1,16,90,gg,53,/,"Paula",2346,True
5648,1,1,17,38,gg,53,/,"Alexandra",729,True
5648,1,1,18,80,gg,53,/,"Carmen",1082,True
5648,1,1,19,9,gg,53,/,"Heather",846,True
5648,1,1,20,88,gg,53,/,"Scarlett",641,True
5648,1,1,21,14,gg,53,/,"Claire",1014,True
5648,1,1,22,72,gg,53,/,"Joanne",739,True
5648,1,1,23,61,gg,53,/,"Brianna",726,True
5648,1,1,24,95,gg,53,/,"Penny",387,True
5648,1,1,25,56,gg,53,/,"Lucy",508,True
5648,1,1,26,96,gb,44,Z,"Nicholas",715,True
5648,1,1,27,89,gb,44,Z,"Brett",935,True
5648,1,1,28,33,gb,44,Z,"Scott",837,True
5648,1,1,29,79,gb,44,Z,"Brian",718,True
5648,1,1,30,45,gb,44,Z,"Gabe",906,True
5648,1,1,31,8,gb,44,Z,"Gary",1885,True
5648,1,1,32,30,gb,53,/,"Josh",3962,False
5648,1,1,33,29,gb,44,Z,"Victor",2642,True
5648,1,1,34,34,gb,44,Z,"Lucas",651,True
5648,1,1,35,19,gb,44,Z,"Charles",661,True
5648,1,1,36,71,gb,44,Z,"Arthur",1011,True
5648,1,1,37,51,gb,44,Z,"Mike",661,True
5648,1,1,38,66,gb,44,Z,"Clark",579,True
5648,1,1,39,73,gb,44,Z,"Harold",598,True
5648,1,1,40,31,gb,44,Z,"David",954,True
5648,1,1,41,49,gb,53,/,"Hector",570,False
5648,1,1,42,37,gb,44,Z,"Simon",834,True
5648,1,1,43,13,gb,44,Z,"Carl",1697,True
5648,1,1,44,76,gb,44,Z,"Erik",1030,True
5648,1,1,45,39,gb,44,Z,"Andrew",773,True
5648,1,1,46,25,gb,44,Z,"Oliver",1228,True
5648,1,1,47,44,gb,44,Z,"Kyle",1092,True
5648,1,1,48,68,gb,44,Z,"Thomas",568,True
5648,1,1,49,85,gb,53,/,"Liam",638,False
5648,1,1,52,67,bg,53,/,"Rachel",700,True
5648,1,1,53,62,bg,53,/,"Samantha",1067,True
5648,1,1,54,11,bg,53,/,"Tiffany",1264,True
5648,1,1,55,7,bg,53,/,"Emma",812,True
5648,1,1,56,35,bg,53,/,"Olivia",1307,True
5648,1,1,57,18,bg,53,/,"Michelle",706,True
5648,1,1,58,4,bg,53,/,"Elizabeth",911,True
5648,1,1,59,93,bg,53,/,"Wendy",2750,True
5648,1,1,60,69,bg,53,/,"Kaylee",675,True
5648,1,1,61,43,bg,53,/,"Sarah",1837,True
5648,1,1,62,53,bg,44,Z,"Charlotte",470,False
5648,1,1,63,63,bg,53,/,"Rihanna",2624,True
5648,1,1,64,50,bg,53,/,"Bella",940,True
5648,1,1,65,55,bg,53,/,"Daniella",595,True
5648,1,1,66,10,bg,53,/,"Tamara",766,True
5648,1,1,67,24,bg,53,/,"Stephanie",971,True
5648,1,1,68,21,bg,44,Z,"Jill",3695,False
5648,1,1,69,3,bg,53,/,"Lillian",2557,True
5648,1,1,70,28,bg,53,/,"Anna",700,True
5648,1,1,71,48,bg,44,Z,"Joy",493,False
5648,1,1,72,87,bg,53,/,"Christina",593,True
5648,1,1,73,36,bg,53,/,"Mia",1694,True
5648,1,1,74,15,bg,53,/,"Gabriella",1406,True
5648,1,1,75,27,bg,53,/,"Nicole",805,True
5648,1,1,76,74,bb,44,Z,"Evan",439,True
5648,1,1,77,41,bb,44,Z,"Nathan",599,True
5648,1,1,78,59,bb,44,Z,"Ryan",836,True
5648,1,1,79,81,bb,44,Z,"Peter",856,True
5648,1,1,80,60,bb,44,Z,"Michael",690,True
5648,1,1,81,52,bb,44,Z,"Edward",628,True
5648,1,1,82,92,bb,44,Z,"Samuel",1064,True
5648,1,1,83,2,bb,44,Z,"Christian",2796,True
5648,1,1,84,54,bb,44,Z,"Ethan",560,True
5648,1,1,85,16,bb,44,Z,"Isaac",2591,True
5648,1,1,86,46,bb,44,Z,"Paul",517,True
5648,1,1,87,6,bb,44,Z,"John",834,True
5648,1,1,88,64,bb,44,Z,"Stephen",1775,True
5648,1,1,89,86,bb,44,Z,"William",525,True
5648,1,1,90,75,bb,44,Z,"Adam",404,True
5648,1,1,91,22,bb,44,Z,"Marc",925,True
5648,1,1,92,70,bb,44,Z,"Richard",1737,True
5648,1,1,93,83,bb,44,Z,"Daniel",731,True
5648,1,1,94,82,bb,44,Z,"Cameron",1295,True
5648,1,1,95,23,bb,44,Z,"Timothy",1136,True
5648,1,1,96,17,bb,44,Z,"Lance",1751,True
5648,1,1,97,32,bb,44,Z,"Anthony",1019,True
5648,1,1,98,77,bb,44,Z,"Jack",492,True
5648,1,1,99,26,bb,44,Z,"Kelvin",573,True
5648,1,1,100,98,e,2,2,"rec.bmp",3526,False
5648,1,1,101,99,e,2,2,"sex.bmp",2260,False
5648,1,1,103,100,e,-1,Brown - south asian,"Please indicate your race:",21439,True
5648,1,1,103,101,e,-1,23,"Please indicate your age:",2548,True
5648,1,1,104,102,e,-1,1,"Please indicate how much exposure you have to children in a typical week in hours:",22468,True
5648,1,1,105,103,e,57,SPACE,"debrief.bmp",3239,True
