Subj,Cond,Block,Trial,Order,!Code,Resp,Name,Stim,RT,Correct,
8765,1,1,1,1,e,57,SPACE,Inst,87937,TRUE,
8765,1,1,2,96,gg,53,/,Rihanna,397,TRUE,
8765,1,1,3,52,gg,53,/,Tiffany,576,TRUE,
8765,1,1,4,6,gg,44,Z,Claire,2003,FALSE,
8765,1,1,5,97,gg,53,/,Layla,436,TRUE,
8765,1,1,6,64,gg,53,/,Lillian,1099,TRUE,
8765,1,1,7,36,gg,53,/,Brianna,463,TRUE,
8765,1,1,8,3,gg,44,Z,Scarlett,4505,FALSE,
8765,1,1,9,30,gg,53,/,Nicole,698,TRUE,
8765,1,1,10,66,gg,53,/,Tamara,652,TRUE,
8765,1,1,11,51,gg,53,/,Cindy,508,TRUE,
8765,1,1,12,87,gg,53,/,Elizabeth,786,TRUE,
8765,1,1,13,7,gg,53,/,Joanne,650,TRUE,
8765,1,1,14,62,gg,53,/,Eve,481,TRUE,
8765,1,1,15,12,gg,53,/,Alyssa,582,TRUE,
8765,1,1,16,85,gg,53,/,Sarah,1050,TRUE,
8765,1,1,17,83,gg,53,/,Olivia,441,TRUE,
8765,1,1,18,58,gg,44,Z,Emma,553,FALSE,
8765,1,1,19,19,gg,53,/,Anna,556,TRUE,
8765,1,1,20,15,gg,44,Z,Grace,691,FALSE,
8765,1,1,21,55,gg,44,Z,Rachel,493,FALSE,
8765,1,1,22,43,gg,53,/,Lucy,459,TRUE,
8765,1,1,23,44,gg,53,/,Daniella,584,TRUE,
8765,1,1,24,47,gg,53,/,Alexandra,217,TRUE,
8765,1,1,25,50,gg,53,/,Samantha,265,TRUE,
8765,1,1,26,38,gb,44,Z,Nathan,930,TRUE,
8765,1,1,27,79,gb,44,Z,Brian,571,TRUE,
8765,1,1,28,72,gb,44,Z,John,855,TRUE,
8765,1,1,29,13,gb,44,Z,Gary,2085,TRUE,
8765,1,1,30,74,gb,44,Z,Lucas,496,TRUE,
8765,1,1,31,37,gb,44,Z,Samuel,628,TRUE,
8765,1,1,32,88,gb,44,Z,Alexander,722,TRUE,
8765,1,1,33,26,gb,44,Z,Arthur,817,TRUE,
8765,1,1,34,2,gb,53,/,Oliver,2306,FALSE,
8765,1,1,35,9,gb,44,Z,Andrew,984,TRUE,
8765,1,1,36,31,gb,44,Z,Timothy,981,TRUE,
8765,1,1,37,14,gb,44,Z,Edward,1263,TRUE,
8765,1,1,38,67,gb,44,Z,Kelvin,417,TRUE,
8765,1,1,39,40,gb,44,Z,Lance,664,TRUE,
8765,1,1,40,89,gb,53,/,Harold,684,FALSE,
8765,1,1,41,59,gb,53,/,Kyle,473,FALSE,
8765,1,1,42,70,gb,44,Z,Gabe,625,TRUE,
8765,1,1,43,27,gb,44,Z,Marc,568,TRUE,
8765,1,1,44,29,gb,53,/,Cameron,643,FALSE,
8765,1,1,45,76,gb,53,/,Thomas,589,FALSE,
8765,1,1,46,92,gb,44,Z,Victor,757,TRUE,
8765,1,1,47,8,gb,53,/,Scott,951,FALSE,
8765,1,1,48,23,gb,53,/,Josh,558,FALSE,
8765,1,1,49,91,gb,44,Z,Erik,198,TRUE,
8765,1,1,52,28,bg,53,/,Amelia,737,TRUE,
8765,1,1,53,94,bg,44,Z,Kaitlyn,507,FALSE,
8765,1,1,54,54,bg,53,/,Paula,415,TRUE,
8765,1,1,55,57,bg,44,Z,Charlotte,519,FALSE,
8765,1,1,56,90,bg,53,/,Bella,432,TRUE,
8765,1,1,57,11,bg,44,Z,Natalie,2190,FALSE,
8765,1,1,58,48,bg,44,Z,Jill,496,FALSE,
8765,1,1,59,16,bg,44,Z,Mia,551,FALSE,
8765,1,1,60,10,bg,44,Z,Penny,840,FALSE,
8765,1,1,61,53,bg,53,/,Alice,641,TRUE,
8765,1,1,62,24,bg,53,/,Christina,600,TRUE,
8765,1,1,63,21,bg,44,Z,Michelle,875,FALSE,
8765,1,1,64,86,bg,44,Z,Diana,543,FALSE,
8765,1,1,65,45,bg,53,/,Erica,512,TRUE,
8765,1,1,66,17,bg,44,Z,Hailey,304,FALSE,
8765,1,1,67,82,bg,44,Z,Gabriella,377,FALSE,
8765,1,1,68,41,bg,44,Z,Isabella,436,FALSE,
8765,1,1,69,49,bg,53,/,Joy,468,TRUE,
8765,1,1,70,77,bg,53,/,Wendy,606,TRUE,
8765,1,1,71,34,bg,53,/,Kaylee,489,TRUE,
8765,1,1,72,93,bg,44,Z,Carmen,487,FALSE,
8765,1,1,73,65,bg,53,/,Heather,655,TRUE,
8765,1,1,74,80,bg,44,Z,Victoria,1189,FALSE,
8765,1,1,75,18,bg,53,/,Brittney,956,TRUE,
8765,1,1,76,68,bb,44,Z,Brett,416,TRUE,
8765,1,1,77,20,bb,53,/,Jack,621,FALSE,
8765,1,1,78,69,bb,44,Z,Isaac,511,TRUE,
8765,1,1,79,60,bb,44,Z,William,638,TRUE,
8765,1,1,80,63,bb,44,Z,Daniel,613,TRUE,
8765,1,1,81,46,bb,53,/,Charles,235,FALSE,
8765,1,1,82,32,bb,44,Z,Adam,685,TRUE,
8765,1,1,83,71,bb,44,Z,Bobby,416,TRUE,
8765,1,1,84,39,bb,44,Z,Ryan,492,TRUE,
8765,1,1,85,61,bb,53,/,Mike,868,FALSE,
8765,1,1,86,22,bb,44,Z,Stephen,648,TRUE,
8765,1,1,87,4,bb,44,Z,David,867,TRUE,
8765,1,1,88,56,bb,44,Z,Clark,449,TRUE,
8765,1,1,89,95,bb,53,/,Nicholas,398,FALSE,
8765,1,1,90,35,bb,53,/,Liam,549,FALSE,
8765,1,1,91,81,bb,44,Z,Evan,660,TRUE,
8765,1,1,92,42,bb,53,/,Peter,596,FALSE,
8765,1,1,93,25,bb,44,Z,Carl,1487,TRUE,
8765,1,1,94,33,bb,44,Z,Hector,576,TRUE,
8765,1,1,95,5,bb,44,Z,Ethan,2128,TRUE,
8765,1,1,96,73,bb,44,Z,Anthony,509,TRUE,
8765,1,1,97,84,bb,53,/,Christian,528,FALSE,
8765,1,1,98,75,bb,44,Z,Simon,300,TRUE,
8765,1,1,99,78,bb,53,/,Richard,445,FALSE,
8765,1,1,100,98,e,3,2,rec,3554,FALSE,
8765,1,1,101,99,e,2,1,sex,1656,TRUE,
8765,1,1,103,100,e,-1,caucasian,Please indicate your race:,8203,TRUE,
8765,1,1,103,101,e,-1,23,Please indicate your age:,1766,TRUE,
8765,1,1,104,102,e,-1,0\,Please indicate how much exposure you have to children in a typical week in hours:,4019,TRUE,
