Subj,Cond,Block,Trial,Order,!Code,Resp,Name,Stim,RT,Correct,
8768,1,1,1,1,e,57,SPACE,Inst,18484,TRUE,
8768,1,1,2,13,gg,44,Z,Wendy,997,FALSE,
8768,1,1,3,45,gg,53,/,Emma,1163,TRUE,
8768,1,1,4,30,gg,44,Z,Bella,463,FALSE,
8768,1,1,5,61,gg,53,/,Sarah,569,TRUE,
8768,1,1,6,53,gg,53,/,Diana,590,TRUE,
8768,1,1,7,11,gg,53,/,Gabriella,822,TRUE,
8768,1,1,8,87,gg,53,/,Claire,603,TRUE,
8768,1,1,9,52,gg,53,/,Stephanie,949,TRUE,
8768,1,1,10,88,gg,53,/,Carmen,787,TRUE,
8768,1,1,11,28,gg,44,Z,Charlotte,826,FALSE,
8768,1,1,12,21,gg,44,Z,Mary,1882,FALSE,
8768,1,1,13,40,gg,53,/,Grace,1069,TRUE,
8768,1,1,14,44,gg,53,/,Hailey,1029,TRUE,
8768,1,1,15,22,gg,53,/,Rachel,950,TRUE,
8768,1,1,16,56,gg,53,/,Heather,707,TRUE,
8768,1,1,17,43,gg,53,/,Alice,715,TRUE,
8768,1,1,18,4,gg,44,Z,Lillian,818,FALSE,
8768,1,1,19,83,gg,53,/,Jill,1154,TRUE,
8768,1,1,20,38,gg,53,/,Amelia,721,TRUE,
8768,1,1,21,57,gg,53,/,Nicole,670,TRUE,
8768,1,1,22,34,gg,44,Z,Joy,771,FALSE,
8768,1,1,23,9,gg,44,Z,Paula,1077,FALSE,
8768,1,1,24,20,gg,53,/,Daniella,706,TRUE,
8768,1,1,25,58,gg,53,/,Samantha,771,TRUE,
8768,1,1,26,46,gb,44,Z,Adam,748,TRUE,
8768,1,1,27,42,gb,44,Z,Andrew,695,TRUE,
8768,1,1,28,86,gb,44,Z,William,828,TRUE,
8768,1,1,29,2,gb,44,Z,Charles,7088,TRUE,
8768,1,1,30,60,gb,44,Z,Ethan,719,TRUE,
8768,1,1,31,27,gb,53,/,Peter,1644,FALSE,
8768,1,1,32,74,gb,44,Z,Mike,802,TRUE,
8768,1,1,33,10,gb,44,Z,Cameron,1523,TRUE,
8768,1,1,34,96,gb,44,Z,Josh,638,TRUE,
8768,1,1,35,73,gb,44,Z,Edward,860,TRUE,
8768,1,1,36,92,gb,44,Z,Bobby,1259,TRUE,
8768,1,1,37,51,gb,44,Z,Simon,664,TRUE,
8768,1,1,38,59,gb,44,Z,Erik,691,TRUE,
8768,1,1,39,32,gb,53,/,Christian,676,FALSE,
8768,1,1,40,24,gb,44,Z,Marc,785,TRUE,
8768,1,1,41,91,gb,44,Z,John,604,TRUE,
8768,1,1,42,48,gb,44,Z,Lucas,616,TRUE,
8768,1,1,43,67,gb,44,Z,Lance,1440,TRUE,
8768,1,1,44,80,gb,53,/,Oliver,615,FALSE,
8768,1,1,45,97,gb,53,/,Alexander,564,FALSE,
8768,1,1,46,47,gb,53,/,Liam,749,FALSE,
8768,1,1,47,26,gb,44,Z,Ryan,598,TRUE,
8768,1,1,48,76,gb,44,Z,Nathan,1907,TRUE,
8768,1,1,49,37,gb,44,Z,Victor,887,TRUE,
8768,1,1,52,7,bg,53,/,Christina,1263,TRUE,
8768,1,1,53,54,bg,44,Z,Alexandra,486,FALSE,
8768,1,1,54,23,bg,44,Z,Mia,2143,FALSE,
8768,1,1,55,64,bg,44,Z,Joanne,704,FALSE,
8768,1,1,56,78,bg,53,/,Cindy,1234,TRUE,
8768,1,1,57,93,bg,44,Z,Brianna,857,FALSE,
8768,1,1,58,55,bg,53,/,Brittney,730,TRUE,
8768,1,1,59,50,bg,53,/,Alyssa,625,TRUE,
8768,1,1,60,68,bg,44,Z,Penny,598,FALSE,
8768,1,1,61,90,bg,53,/,Tiffany,1363,TRUE,
8768,1,1,62,72,bg,44,Z,Layla,1131,FALSE,
8768,1,1,63,71,bg,53,/,Anna,1237,TRUE,
8768,1,1,64,69,bg,53,/,Rihanna,758,TRUE,
8768,1,1,65,8,bg,44,Z,Elizabeth,1732,FALSE,
8768,1,1,66,65,bg,44,Z,Lucy,651,FALSE,
8768,1,1,67,33,bg,53,/,Michelle,729,TRUE,
8768,1,1,68,19,bg,44,Z,Kaitlyn,660,FALSE,
8768,1,1,69,75,bg,44,Z,Scarlett,945,FALSE,
8768,1,1,70,49,bg,44,Z,Isabella,478,FALSE,
8768,1,1,71,29,bg,53,/,Eve,1233,TRUE,
8768,1,1,72,17,bg,53,/,Victoria,1806,TRUE,
8768,1,1,73,77,bg,53,/,Olivia,863,TRUE,
8768,1,1,74,3,bg,53,/,Natalie,3061,TRUE,
8768,1,1,75,12,bg,44,Z,Kaylee,555,FALSE,
8768,1,1,76,85,bb,44,Z,Thomas,705,TRUE,
8768,1,1,77,66,bb,44,Z,Stephen,593,TRUE,
8768,1,1,78,70,bb,53,/,Gabe,1039,FALSE,
8768,1,1,79,36,bb,44,Z,Hector,524,TRUE,
8768,1,1,80,5,bb,44,Z,Brett,1130,TRUE,
8768,1,1,81,31,bb,44,Z,David,556,TRUE,
8768,1,1,82,63,bb,44,Z,Jack,742,TRUE,
8768,1,1,83,39,bb,44,Z,Anthony,748,TRUE,
8768,1,1,84,25,bb,44,Z,Arthur,450,TRUE,
8768,1,1,85,94,bb,44,Z,Michael,1318,TRUE,
8768,1,1,86,89,bb,44,Z,Daniel,546,TRUE,
8768,1,1,87,84,bb,44,Z,Richard,1035,TRUE,
8768,1,1,88,14,bb,44,Z,Scott,4220,TRUE,
8768,1,1,89,41,bb,44,Z,Clark,1034,TRUE,
8768,1,1,90,35,bb,44,Z,Timothy,588,TRUE,
8768,1,1,91,81,bb,44,Z,Evan,958,TRUE,
8768,1,1,92,95,bb,44,Z,Kyle,840,TRUE,
8768,1,1,93,82,bb,44,Z,Gary,2256,TRUE,
8768,1,1,94,18,bb,44,Z,Samuel,1230,TRUE,
8768,1,1,95,62,bb,44,Z,Kelvin,665,TRUE,
8768,1,1,96,16,bb,44,Z,Harold,2490,TRUE,
8768,1,1,97,79,bb,44,Z,Brian,1041,TRUE,
8768,1,1,98,6,bb,44,Z,Carl,2101,TRUE,
8768,1,1,99,15,bb,44,Z,Paul,795,TRUE,
8768,1,1,100,98,e,3,2,rec,56541,FALSE,
8768,1,1,101,99,e,2,1,sex,3314,TRUE,
8768,1,1,103,100,e,-1,asian,Please indicate your race:,19637,TRUE,
8768,1,1,103,101,e,-1,21,Please indicate your age:,3694,TRUE,
8768,1,1,104,102,e,-1,6,Please indicate how much exposure you have to children in a typical week in hours:,10646,TRUE,
8768,1,1,105,103,e,57,SPACE,debrief,1885,TRUE,
