Subj,Cond,Block,Trial,Order,!Code,Resp,Name,Stim,RT,Correct,
8776,1,1,1,1,e,57,SPACE,Inst,24286,TRUE,
8776,1,1,2,85,gg,53,/,Michelle,846,TRUE,
8776,1,1,3,53,gg,53,/,Joy,824,TRUE,
8776,1,1,4,88,gg,53,/,Tamara,1035,TRUE,
8776,1,1,5,62,gg,53,/,Victoria,966,TRUE,
8776,1,1,6,45,gg,53,/,Hailey,1957,TRUE,
8776,1,1,7,17,gg,53,/,Lucy,743,TRUE,
8776,1,1,8,79,gg,53,/,Carmen,1583,TRUE,
8776,1,1,9,87,gg,53,/,Alice,595,TRUE,
8776,1,1,10,96,gg,53,/,Lillian,699,TRUE,
8776,1,1,11,9,gg,53,/,Penny,2171,TRUE,
8776,1,1,12,50,gg,53,/,Daniella,651,TRUE,
8776,1,1,13,24,gg,53,/,Emma,848,TRUE,
8776,1,1,14,84,gg,53,/,Kaitlyn,1065,TRUE,
8776,1,1,15,5,gg,53,/,Wendy,1724,TRUE,
8776,1,1,16,10,gg,53,/,Brianna,980,TRUE,
8776,1,1,17,97,gg,53,/,Rachel,863,TRUE,
8776,1,1,18,6,gg,53,/,Grace,1671,TRUE,
8776,1,1,19,55,gg,44,Z,Jill,708,FALSE,
8776,1,1,20,42,gg,53,/,Mia,862,TRUE,
8776,1,1,21,80,gg,53,/,Heather,1327,TRUE,
8776,1,1,22,81,gg,53,/,Sarah,930,TRUE,
8776,1,1,23,59,gg,53,/,Nicole,838,TRUE,
8776,1,1,24,89,gg,53,/,Bella,649,TRUE,
8776,1,1,25,49,gg,53,/,Brittney,736,TRUE,
8776,1,1,26,8,gb,44,Z,Erik,1546,TRUE,
8776,1,1,27,64,gb,44,Z,Ethan,4148,TRUE,
8776,1,1,28,26,gb,53,/,Cameron,1965,FALSE,
8776,1,1,29,58,gb,44,Z,Lucas,799,TRUE,
8776,1,1,30,3,gb,44,Z,Scott,2273,TRUE,
8776,1,1,31,66,gb,44,Z,Lance,1287,TRUE,
8776,1,1,32,65,gb,53,/,Nathan,3750,FALSE,
8776,1,1,33,19,gb,44,Z,Ryan,1054,TRUE,
8776,1,1,34,32,gb,44,Z,Thomas,1128,TRUE,
8776,1,1,35,90,gb,53,/,Arthur,558,FALSE,
8776,1,1,36,16,gb,44,Z,Isaac,1166,TRUE,
8776,1,1,37,54,gb,44,Z,Paul,655,TRUE,
8776,1,1,38,11,gb,44,Z,Marc,1004,TRUE,
8776,1,1,39,48,gb,53,/,Gabe,935,FALSE,
8776,1,1,40,71,gb,53,/,Bobby,1212,FALSE,
8776,1,1,41,35,gb,44,Z,Michael,765,TRUE,
8776,1,1,42,69,gb,44,Z,Carl,1933,TRUE,
8776,1,1,43,75,gb,53,/,Kelvin,716,FALSE,
8776,1,1,44,60,gb,44,Z,Daniel,764,TRUE,
8776,1,1,45,15,gb,44,Z,Josh,1166,TRUE,
8776,1,1,46,2,gb,44,Z,Oliver,4699,TRUE,
8776,1,1,47,30,gb,44,Z,Gary,859,TRUE,
8776,1,1,48,23,gb,44,Z,Harold,2958,TRUE,
8776,1,1,49,57,gb,53,/,Stephen,716,FALSE,
8776,1,1,52,7,bg,53,/,Alexandra,2443,TRUE,
8776,1,1,53,21,bg,53,/,Eve,1451,TRUE,
8776,1,1,54,43,bg,53,/,Erica,1315,TRUE,
8776,1,1,55,14,bg,53,/,Kaylee,1422,TRUE,
8776,1,1,56,77,bg,53,/,Gabriella,903,TRUE,
8776,1,1,57,95,bg,53,/,Claire,737,TRUE,
8776,1,1,58,39,bg,53,/,Diana,752,TRUE,
8776,1,1,59,73,bg,53,/,Elizabeth,761,TRUE,
8776,1,1,60,83,bg,53,/,Samantha,769,TRUE,
8776,1,1,61,22,bg,53,/,Scarlett,1641,TRUE,
8776,1,1,62,93,bg,53,/,Paula,929,TRUE,
8776,1,1,63,94,bg,53,/,Christina,859,TRUE,
8776,1,1,64,76,bg,53,/,Tiffany,727,TRUE,
8776,1,1,65,52,bg,53,/,Amelia,525,TRUE,
8776,1,1,66,82,bg,53,/,Stephanie,676,TRUE,
8776,1,1,67,28,bg,53,/,Isabella,1002,TRUE,
8776,1,1,68,37,bg,53,/,Anna,796,TRUE,
8776,1,1,69,70,bg,53,/,Olivia,1255,TRUE,
8776,1,1,70,38,bg,53,/,Rihanna,908,TRUE,
8776,1,1,71,36,bg,53,/,Alyssa,997,TRUE,
8776,1,1,72,68,bg,53,/,Natalie,1622,TRUE,
8776,1,1,73,13,bg,53,/,Charlotte,1174,TRUE,
8776,1,1,74,18,bg,53,/,Joanne,849,TRUE,
8776,1,1,75,31,bg,53,/,Layla,1184,TRUE,
8776,1,1,76,20,bb,44,Z,William,1187,TRUE,
8776,1,1,77,47,bb,44,Z,Hector,857,TRUE,
8776,1,1,78,27,bb,44,Z,Nicholas,1078,TRUE,
8776,1,1,79,51,bb,44,Z,Liam,848,TRUE,
8776,1,1,80,56,bb,44,Z,David,639,TRUE,
8776,1,1,81,40,bb,44,Z,Samuel,968,TRUE,
8776,1,1,82,41,bb,44,Z,Clark,1666,TRUE,
8776,1,1,83,91,bb,44,Z,Alexander,904,TRUE,
8776,1,1,84,86,bb,44,Z,Edward,1005,TRUE,
8776,1,1,85,78,bb,44,Z,Jack,707,TRUE,
8776,1,1,86,34,bb,44,Z,Simon,723,TRUE,
8776,1,1,87,61,bb,44,Z,Brian,1365,TRUE,
8776,1,1,88,72,bb,44,Z,Peter,651,TRUE,
8776,1,1,89,74,bb,44,Z,Victor,746,TRUE,
8776,1,1,90,67,bb,44,Z,Brett,1723,TRUE,
8776,1,1,91,46,bb,44,Z,Richard,718,TRUE,
8776,1,1,92,4,bb,44,Z,Anthony,2822,TRUE,
8776,1,1,93,33,bb,44,Z,Kyle,987,TRUE,
8776,1,1,94,29,bb,44,Z,Mike,561,TRUE,
8776,1,1,95,63,bb,44,Z,Timothy,2038,TRUE,
8776,1,1,96,92,bb,53,/,Evan,828,FALSE,
8776,1,1,97,25,bb,44,Z,Adam,1206,TRUE,
8776,1,1,98,44,bb,44,Z,Andrew,798,TRUE,
8776,1,1,99,12,bb,44,Z,John,1132,TRUE,
8776,1,1,100,98,e,3,2,rec,5714,FALSE,
8776,1,1,101,99,e,2,1,sex,2666,TRUE,
8776,1,1,103,100,e,-1,Asian ,Please indicate your race:,12550,TRUE,
8776,1,1,103,101,e,-1,eighteen ,Please indicate your age:,6338,TRUE,
8776,1,1,104,102,e,-1,two hours ,Please indicate how much exposure you have to children in a typical week in hours:,15137,TRUE,
