Subj,Cond,Block,Trial,Order,!Code,Resp,Name,Stim,RT,Correct,
8781,1,1,1,1,e,57,SPACE,Inst,9076,TRUE,
8781,1,1,2,34,gg,53,/,Claire,643,TRUE,
8781,1,1,3,62,gg,44,Z,Carmen,430,FALSE,
8781,1,1,4,85,gg,53,/,Eve,638,TRUE,
8781,1,1,5,46,gg,53,/,Tamara,540,TRUE,
8781,1,1,6,31,gg,44,Z,Tiffany,476,FALSE,
8781,1,1,7,97,gg,53,/,Mia,578,TRUE,
8781,1,1,8,6,gg,53,/,Victoria,544,TRUE,
8781,1,1,9,75,gg,53,/,Wendy,601,TRUE,
8781,1,1,10,70,gg,53,/,Erica,638,TRUE,
8781,1,1,11,50,gg,53,/,Michelle,599,TRUE,
8781,1,1,12,2,gg,53,/,Brianna,945,TRUE,
8781,1,1,13,57,gg,53,/,Alyssa,503,TRUE,
8781,1,1,14,83,gg,53,/,Paula,705,TRUE,
8781,1,1,15,65,gg,53,/,Gabriella,512,TRUE,
8781,1,1,16,20,gg,53,/,Brittney,575,TRUE,
8781,1,1,17,78,gg,44,Z,Elizabeth,477,FALSE,
8781,1,1,18,11,gg,44,Z,Nicole,491,FALSE,
8781,1,1,19,56,gg,53,/,Jill,565,TRUE,
8781,1,1,20,41,gg,53,/,Kaitlyn,541,TRUE,
8781,1,1,21,40,gg,53,/,Stephanie,530,TRUE,
8781,1,1,22,33,gg,53,/,Christina,637,TRUE,
8781,1,1,23,51,gg,44,Z,Lucy,550,FALSE,
8781,1,1,24,69,gg,53,/,Rachel,723,TRUE,
8781,1,1,25,94,gg,44,Z,Lillian,556,FALSE,
8781,1,1,26,61,gb,44,Z,Bobby,465,TRUE,
8781,1,1,27,91,gb,44,Z,Nicholas,496,TRUE,
8781,1,1,28,4,gb,44,Z,Anthony,527,TRUE,
8781,1,1,29,76,gb,44,Z,Hector,464,TRUE,
8781,1,1,30,59,gb,44,Z,Cameron,641,TRUE,
8781,1,1,31,67,gb,44,Z,Brett,631,TRUE,
8781,1,1,32,30,gb,44,Z,Michael,705,TRUE,
8781,1,1,33,32,gb,44,Z,Richard,514,TRUE,
8781,1,1,34,47,gb,44,Z,Clark,486,TRUE,
8781,1,1,35,71,gb,53,/,Alexander,564,FALSE,
8781,1,1,36,21,gb,44,Z,Victor,408,TRUE,
8781,1,1,37,18,gb,44,Z,Charles,558,TRUE,
8781,1,1,38,68,gb,44,Z,Lance,645,TRUE,
8781,1,1,39,77,gb,44,Z,John,581,TRUE,
8781,1,1,40,81,gb,44,Z,Simon,479,TRUE,
8781,1,1,41,42,gb,44,Z,Jack,558,TRUE,
8781,1,1,42,49,gb,44,Z,William,558,TRUE,
8781,1,1,43,58,gb,44,Z,Gary,593,TRUE,
8781,1,1,44,63,gb,44,Z,Marc,564,TRUE,
8781,1,1,45,15,gb,53,/,Gabe,578,FALSE,
8781,1,1,46,54,gb,44,Z,Edward,573,TRUE,
8781,1,1,47,86,gb,44,Z,Andrew,523,TRUE,
8781,1,1,48,89,gb,44,Z,Daniel,635,TRUE,
8781,1,1,49,13,gb,44,Z,Brian,481,TRUE,
8781,1,1,52,26,bg,53,/,Joy,684,TRUE,
8781,1,1,53,9,bg,53,/,Joanne,699,TRUE,
8781,1,1,54,10,bg,53,/,Cindy,637,TRUE,
8781,1,1,55,96,bg,44,Z,Natalie,443,FALSE,
8781,1,1,56,35,bg,53,/,Alexandra,513,TRUE,
8781,1,1,57,38,bg,53,/,Scarlett,560,TRUE,
8781,1,1,58,95,bg,44,Z,Olivia,437,FALSE,
8781,1,1,59,53,bg,53,/,Charlotte,740,TRUE,
8781,1,1,60,43,bg,53,/,Hailey,720,TRUE,
8781,1,1,61,25,bg,53,/,Samantha,537,TRUE,
8781,1,1,62,16,bg,53,/,Mary,522,TRUE,
8781,1,1,63,74,bg,53,/,Bella,652,TRUE,
8781,1,1,64,55,bg,53,/,Anna,614,TRUE,
8781,1,1,65,14,bg,53,/,Daniella,653,TRUE,
8781,1,1,66,37,bg,53,/,Alice,467,TRUE,
8781,1,1,67,24,bg,53,/,Kaylee,593,TRUE,
8781,1,1,68,8,bg,44,Z,Penny,420,FALSE,
8781,1,1,69,93,bg,53,/,Heather,664,TRUE,
8781,1,1,70,39,bg,53,/,Amelia,569,TRUE,
8781,1,1,71,29,bg,53,/,Sarah,651,TRUE,
8781,1,1,72,28,bg,53,/,Emma,479,TRUE,
8781,1,1,73,66,bg,53,/,Rihanna,484,TRUE,
8781,1,1,74,17,bg,53,/,Isabella,557,TRUE,
8781,1,1,75,27,bg,53,/,Grace,608,TRUE,
8781,1,1,76,92,bb,44,Z,Isaac,467,TRUE,
8781,1,1,77,80,bb,44,Z,Arthur,525,TRUE,
8781,1,1,78,72,bb,44,Z,Evan,460,TRUE,
8781,1,1,79,19,bb,44,Z,Adam,824,TRUE,
8781,1,1,80,45,bb,44,Z,Nathan,813,TRUE,
8781,1,1,81,44,bb,44,Z,Harold,731,TRUE,
8781,1,1,82,22,bb,44,Z,Paul,527,TRUE,
8781,1,1,83,5,bb,44,Z,Erik,634,TRUE,
8781,1,1,84,79,bb,44,Z,Carl,505,TRUE,
8781,1,1,85,64,bb,44,Z,Stephen,701,TRUE,
8781,1,1,86,90,bb,44,Z,Kyle,609,TRUE,
8781,1,1,87,60,bb,44,Z,Lucas,518,TRUE,
8781,1,1,88,87,bb,44,Z,Ryan,534,TRUE,
8781,1,1,89,82,bb,44,Z,Josh,452,TRUE,
8781,1,1,90,88,bb,44,Z,Scott,528,TRUE,
8781,1,1,91,7,bb,44,Z,Peter,482,TRUE,
8781,1,1,92,3,bb,44,Z,Liam,701,TRUE,
8781,1,1,93,73,bb,44,Z,Kelvin,538,TRUE,
8781,1,1,94,36,bb,44,Z,Mike,571,TRUE,
8781,1,1,95,84,bb,44,Z,Timothy,557,TRUE,
8781,1,1,96,52,bb,44,Z,Oliver,496,TRUE,
8781,1,1,97,23,bb,44,Z,Samuel,542,TRUE,
8781,1,1,98,48,bb,44,Z,Ethan,673,TRUE,
8781,1,1,99,12,bb,44,Z,Thomas,576,TRUE,
8781,1,1,100,98,e,3,2,rec,2000,FALSE,
8781,1,1,101,99,e,2,1,sex,1427,TRUE,
8781,1,1,103,100,e,-1,caucasian,Please indicate your race:,4153,TRUE,
8781,1,1,103,101,e,-1,20,Please indicate your age:,1684,TRUE,
8781,1,1,104,102,e,-1,0\,Please indicate how much exposure you have to children in a typical week in hours:,3438,TRUE,
8781,1,1,105,103,e,57,SPACE,debrief,155933,TRUE,
