Subj,Cond,Block,Trial,Order,!Code,Resp,Name,Stim,RT,Correct,
8793,1,1,1,1,e,57,SPACE,Inst,28334,TRUE,
8793,1,1,2,9,gg,53,/,Isabella,1503,TRUE,
8793,1,1,3,4,gg,53,/,Elizabeth,1840,TRUE,
8793,1,1,4,95,gg,53,/,Mia,843,TRUE,
8793,1,1,5,11,gg,53,/,Penny,2284,TRUE,
8793,1,1,6,77,gg,53,/,Tamara,1254,TRUE,
8793,1,1,7,34,gg,53,/,Michelle,1422,TRUE,
8793,1,1,8,35,gg,53,/,Charlotte,965,TRUE,
8793,1,1,9,88,gg,53,/,Hailey,992,TRUE,
8793,1,1,10,27,gg,53,/,Samantha,1719,TRUE,
8793,1,1,11,10,gg,53,/,Olivia,1738,TRUE,
8793,1,1,12,66,gg,53,/,Tiffany,2504,TRUE,
8793,1,1,13,82,gg,53,/,Claire,1970,TRUE,
8793,1,1,14,84,gg,53,/,Christina,1038,TRUE,
8793,1,1,15,7,gg,53,/,Daniella,1321,TRUE,
8793,1,1,16,55,gg,53,/,Sarah,949,TRUE,
8793,1,1,17,8,gg,53,/,Bella,1932,TRUE,
8793,1,1,18,56,gg,53,/,Anna,806,TRUE,
8793,1,1,19,51,gg,53,/,Lillian,3232,TRUE,
8793,1,1,20,50,gg,53,/,Wendy,834,TRUE,
8793,1,1,21,19,gg,53,/,Kaylee,1371,TRUE,
8793,1,1,22,32,gg,44,Z,Kaitlyn,2905,FALSE,
8793,1,1,23,21,gg,53,/,Emma,1022,TRUE,
8793,1,1,24,47,gg,53,/,Rachel,1586,TRUE,
8793,1,1,25,52,gg,53,/,Victoria,1318,TRUE,
8793,1,1,26,23,gb,44,Z,William,1044,TRUE,
8793,1,1,27,33,gb,44,Z,Mike,748,TRUE,
8793,1,1,28,26,gb,44,Z,Brian,726,TRUE,
8793,1,1,29,53,gb,53,/,Isaac,929,FALSE,
8793,1,1,30,36,gb,53,/,Harold,2246,FALSE,
8793,1,1,31,57,gb,44,Z,Jack,758,TRUE,
8793,1,1,32,16,gb,44,Z,Arthur,820,TRUE,
8793,1,1,33,79,gb,44,Z,Kelvin,722,TRUE,
8793,1,1,34,75,gb,44,Z,Scott,636,TRUE,
8793,1,1,35,13,gb,44,Z,Michael,868,TRUE,
8793,1,1,36,83,gb,44,Z,Paul,707,TRUE,
8793,1,1,37,59,gb,44,Z,Kyle,1180,TRUE,
8793,1,1,38,58,gb,53,/,Christian,871,FALSE,
8793,1,1,39,60,gb,44,Z,Thomas,733,TRUE,
8793,1,1,40,80,gb,53,/,Liam,3908,FALSE,
8793,1,1,41,30,gb,44,Z,Andrew,895,TRUE,
8793,1,1,42,46,gb,44,Z,Clark,1261,TRUE,
8793,1,1,43,2,gb,44,Z,Ethan,4192,TRUE,
8793,1,1,44,14,gb,44,Z,Carl,1145,TRUE,
8793,1,1,45,85,gb,53,/,Brett,2067,FALSE,
8793,1,1,46,90,gb,44,Z,Marc,810,TRUE,
8793,1,1,47,44,gb,44,Z,Simon,877,TRUE,
8793,1,1,48,6,gb,53,/,Cameron,2052,FALSE,
8793,1,1,49,70,gb,44,Z,Adam,609,TRUE,
8793,1,1,52,42,bg,53,/,Alice,1105,TRUE,
8793,1,1,53,61,bg,53,/,Jill,2374,TRUE,
8793,1,1,54,89,bg,53,/,Alyssa,1519,TRUE,
8793,1,1,55,5,bg,44,Z,Scarlett,1846,FALSE,
8793,1,1,56,92,bg,44,Z,Alexandra,1018,FALSE,
8793,1,1,57,43,bg,53,/,Grace,1396,TRUE,
8793,1,1,58,54,bg,44,Z,Brianna,2515,FALSE,
8793,1,1,59,45,bg,53,/,Diana,2489,TRUE,
8793,1,1,60,86,bg,53,/,Paula,1688,TRUE,
8793,1,1,61,17,bg,44,Z,Amelia,818,FALSE,
8793,1,1,62,87,bg,44,Z,Stephanie,3108,FALSE,
8793,1,1,63,38,bg,53,/,Cindy,1464,TRUE,
8793,1,1,64,97,bg,44,Z,Joy,860,FALSE,
8793,1,1,65,96,bg,53,/,Eve,1739,TRUE,
8793,1,1,66,20,bg,53,/,Mary,2507,TRUE,
8793,1,1,67,91,bg,44,Z,Natalie,995,FALSE,
8793,1,1,68,18,bg,44,Z,Heather,1369,FALSE,
8793,1,1,69,3,bg,44,Z,Joanne,1325,FALSE,
8793,1,1,70,73,bg,44,Z,Erica,710,FALSE,
8793,1,1,71,71,bg,53,/,Lucy,920,TRUE,
8793,1,1,72,41,bg,53,/,Rihanna,2610,TRUE,
8793,1,1,73,74,bg,44,Z,Layla,545,FALSE,
8793,1,1,74,94,bg,44,Z,Carmen,1595,FALSE,
8793,1,1,75,76,bg,44,Z,Nicole,2056,FALSE,
8793,1,1,76,64,bb,44,Z,Bobby,1006,TRUE,
8793,1,1,77,25,bb,44,Z,Nathan,706,TRUE,
8793,1,1,78,37,bb,44,Z,Edward,1275,TRUE,
8793,1,1,79,49,bb,44,Z,Lance,1877,TRUE,
8793,1,1,80,69,bb,44,Z,Peter,1369,TRUE,
8793,1,1,81,15,bb,44,Z,Victor,1155,TRUE,
8793,1,1,82,29,bb,44,Z,Samuel,1108,TRUE,
8793,1,1,83,65,bb,44,Z,Stephen,1102,TRUE,
8793,1,1,84,78,bb,44,Z,Timothy,1011,TRUE,
8793,1,1,85,63,bb,44,Z,Hector,2673,TRUE,
8793,1,1,86,81,bb,44,Z,Oliver,1536,TRUE,
8793,1,1,87,48,bb,44,Z,Alexander,1324,TRUE,
8793,1,1,88,12,bb,44,Z,Gary,1296,TRUE,
8793,1,1,89,67,bb,44,Z,Evan,852,TRUE,
8793,1,1,90,31,bb,44,Z,Daniel,1619,TRUE,
8793,1,1,91,22,bb,44,Z,John,1412,TRUE,
8793,1,1,92,62,bb,44,Z,Nicholas,1735,TRUE,
8793,1,1,93,24,bb,44,Z,Lucas,994,TRUE,
8793,1,1,94,39,bb,44,Z,Josh,1133,TRUE,
8793,1,1,95,40,bb,44,Z,Charles,927,TRUE,
8793,1,1,96,93,bb,44,Z,Richard,705,TRUE,
8793,1,1,97,28,bb,44,Z,David,770,TRUE,
8793,1,1,98,68,bb,44,Z,Gabe,2810,TRUE,
8793,1,1,99,72,bb,44,Z,Anthony,915,TRUE,
8793,1,1,100,98,e,3,2,rec,12167,FALSE,
8793,1,1,101,99,e,2,1,sex,3981,TRUE,
8793,1,1,103,100,e,-1,eastasian,Please indicate your race:,49523,TRUE,
8793,1,1,103,101,e,-1,20,Please indicate your age:,4028,TRUE,
8793,1,1,104,102,e,-1,0,Please indicate how much exposure you have to children in a typical week in hours:,29031,TRUE,
8793,1,1,105,103,e,57,SPACE,debrief,55319,TRUE,
